Information1.started,Information1.stopped,Space1.keys,Space1.rt,Space1.duration,participant,session,date,expName,psychopyVersion,OS,frameRate,Information1_5.started,Information1_5.stopped,Space1_2.keys,Space1_2.rt,Space1_2.duration,Information2.started,Information2.stopped,Space2.keys,Space2.rt,Space2.duration,Consent.started,Consent.stopped,Space3.keys,Space3.rt,Space3.duration,ProlificID.started,ProlificID.stopped,Textbox1.text,Enter1.keys,Enter1.rt,Enter1.duration,prolificID,Intro1.started,Intro1.stopped,Space5.keys,Space5.rt,Space5.duration,Intro2.started,Intro2.stopped,Space6.keys,Space6.rt,Space6.duration,PracticeTrial.started,PracticeTrial.stopped,AesResp.response,AesResp.rt,ArtResp.response,ArtResp.rt,EndPrac.keys,EndPrac.rt,EndPrac.duration,Intro5.started,Intro5.stopped,Space7.keys,Space7.rt,Space7.duration,Trial1.started,Trial1.stopped,Question1,Response1,Question2,Response2,Slider1.response,Slider1.rt,Slider2.response,Slider2.rt,MoveOn.keys,MoveOn.rt,MoveOn.duration,ITI.started,ITI.stopped,All_trials1.thisRepN,All_trials1.thisTrialN,All_trials1.thisN,All_trials1.thisIndex,All_trials1.ran,videofile,triggers,startingtime,Attention1.started,Attention1.stopped,Question1AC1,Response1AC1,Question2AC1,Response2AC1,Slider1_2.response,Slider1_2.rt,Slider2_2.response,Slider2_2.rt,MoveOn_2.keys,MoveOn_2.rt,MoveOn_2.duration,Intro6.started,Intro6.stopped,Space8.keys,Space8.rt,Space8.duration,Trial2.started,Trial2.stopped,Slider3.response,Slider3.rt,MoveOn2.keys,MoveOn2.rt,MoveOn2.duration,All_trials2.thisRepN,All_trials2.thisTrialN,All_trials2.thisN,All_trials2.thisIndex,All_trials2.ran,Attention2.started,Attention2.stopped,Response1AC2,Slider3_2.response,Slider3_2.rt,MoveOn_3.keys,MoveOn_3.rt,MoveOn_3.duration,Intro7.started,Intro7.stopped,Space9.keys,Space9.rt,Space9.duration,Trial3.started,Trial3.stopped,Question4,Response4,Question5,Response5,Slider4.response,Slider4.rt,Slider5.response,Slider5.rt,MoveOn3.keys,MoveOn3.rt,MoveOn3.duration,All_trials3.thisRepN,All_trials3.thisTrialN,All_trials3.thisN,All_trials3.thisIndex,All_trials3.ran,Attention3.started,Attention3.stopped,Question1AC3,Response1AC3,Question2AC3,Response2AC3,Slider1_3.response,Slider1_3.rt,Slider2_3.response,Slider2_3.rt,MoveOn_4.keys,MoveOn_4.rt,MoveOn_4.duration,Outro.started,Outro.stopped,Space10.keys,Space10.rt,Space10.duration
0.0002,1.2262,space,0.2196,,527982,001,2026-06-16_15h23.37.011,AIDance_3Blocks_AI2026_v5,2026.1.2,MacIntel,119.047619,,,,,,,,,,,,,,,,,,,,,,,,,,,,,,,,,,,,,,,,,,,,,,,,,,,,,,,,,,,,,,,,,,,,,,,,,,,,,,,,,,,,,,,,,,,,,,,,,,,,,,,,,,,,,,,,,,,,,,,,,,,,,,,,,,,,,,,,,,,,,,,,,,,,
,,,,,527982,001,2026-06-16_15h23.37.011,AIDance_3Blocks_AI2026_v5,2026.1.2,MacIntel,119.047619,1.2263,5.0804,space,2.8443,,,,,,,,,,,,,,,,,,,,,,,,,,,,,,,,,,,,,,,,,,,,,,,,,,,,,,,,,,,,,,,,,,,,,,,,,,,,,,,,,,,,,,,,,,,,,,,,,,,,,,,,,,,,,,,,,,,,,,,,,,,,,,,,,,,,,,,,,,,,,,,,
,,,,,527982,001,2026-06-16_15h23.37.011,AIDance_3Blocks_AI2026_v5,2026.1.2,MacIntel,119.047619,,,,,,5.0804,7.1048,space,1.0084,,,,,,,,,,,,,,,,,,,,,,,,,,,,,,,,,,,,,,,,,,,,,,,,,,,,,,,,,,,,,,,,,,,,,,,,,,,,,,,,,,,,,,,,,,,,,,,,,,,,,,,,,,,,,,,,,,,,,,,,,,,,,,,,,,,,,,,,,,,
,,,,,527982,001,2026-06-16_15h23.37.011,AIDance_3Blocks_AI2026_v5,2026.1.2,MacIntel,119.047619,,,,,,,,,,,7.1048,12.0543,space,3.9298,,,,,,,,,,,,,,,,,,,,,,,,,,,,,,,,,,,,,,,,,,,,,,,,,,,,,,,,,,,,,,,,,,,,,,,,,,,,,,,,,,,,,,,,,,,,,,,,,,,,,,,,,,,,,,,,,,,,,,,,,,,,,,,,,,,,,,
,,,,,527982,001,2026-06-16_15h23.37.011,AIDance_3Blocks_AI2026_v5,2026.1.2,MacIntel,119.047619,,,,,,,,,,,,,,,,12.0544,14.6882,m,return,1.63,,m,,,,,,,,,,,,,,,,,,,,,,,,,,,,,,,,,,,,,,,,,,,,,,,,,,,,,,,,,,,,,,,,,,,,,,,,,,,,,,,,,,,,,,,,,,,,,,,,,,,,,,,,,,,,,,,,,,,,,,,,,,,,,,
,,,,,527982,001,2026-06-16_15h23.37.011,AIDance_3Blocks_AI2026_v5,2026.1.2,MacIntel,119.047619,,,,,,,,,,,,,,,,,,,,,,m,14.6882,25.9301,space,10.2355,,,,,,,,,,,,,,,,,,,,,,,,,,,,,,,,,,,,,,,,,,,,,,,,,,,,,,,,,,,,,,,,,,,,,,,,,,,,,,,,,,,,,,,,,,,,,,,,,,,,,,,,,,,,,,,,,,,,,,,,,,
,,,,,527982,001,2026-06-16_15h23.37.011,AIDance_3Blocks_AI2026_v5,2026.1.2,MacIntel,119.047619,,,,,,,,,,,,,,,,,,,,,,m,,,,,,25.9301,27.4383,space,0.4963,,,,,,,,,,,,,,,,,,,,,,,,,,,,,,,,,,,,,,,,,,,,,,,,,,,,,,,,,,,,,,,,,,,,,,,,,,,,,,,,,,,,,,,,,,,,,,,,,,,,,,,,,,,,,,,,,,,,,
,,,,,527982,001,2026-06-16_15h23.37.011,AIDance_3Blocks_AI2026_v5,2026.1.2,MacIntel,119.047619,,,,,,,,,,,,,,,,,,,,,,m,,,,,,,,,,,27.4386,39.3624,66,11.6736,66,11.1451,space,4.9018,,,,,,,,,,,,,,,,,,,,,,,,,,,,,,,,,,,,,,,,,,,,,,,,,,,,,,,,,,,,,,,,,,,,,,,,,,,,,,,,,,,,,,,,,,,,,,,,,,,,,,,,,,,,
,,,,,527982,001,2026-06-16_15h23.37.011,AIDance_3Blocks_AI2026_v5,2026.1.2,MacIntel,119.047619,,,,,,,,,,,,,,,,,,,,,,m,,,,,,,,,,,,,,,,,,,,39.3625,40.4384,space,0.066,,,,,,,,,,,,,,,,,,,,,,,,,,,,,,,,,,,,,,,,,,,,,,,,,,,,,,,,,,,,,,,,,,,,,,,,,,,,,,,,,,,,,,,,,,,,,,,,,,,,,,,
,,,,,527982,001,2026-06-16_15h23.37.011,AIDance_3Blocks_AI2026_v5,2026.1.2,MacIntel,119.047619,,,,,,,,,,,,,,,,,,,,,,m,,,,,,,,,,,,,,,,,,,,,,,,,40.4472,50.4054,How much ARTISTIC SKILL was involved in the movements you just watched?,66,How much did you LIKE the movements you just watched?,34,66,8.0151,34,8.9728,space,3.9485,,50.4056,52.4047,0,0,0,13,1,stimuli/AI_8_bw_LUM.mp4,2,7,,,,,,,,,,,,,,,,,,,,,,,,,,,,,,,,,,,,,,,,,,,,,,,,,,,,,,,,,,,,,,,,,,,,,,,,,,,,,,,
,,,,,527982,001,2026-06-16_15h23.37.011,AIDance_3Blocks_AI2026_v5,2026.1.2,MacIntel,119.047619,,,,,,,,,,,,,,,,,,,,,,m,,,,,,,,,,,,,,,,,,,,,,,,,52.4053,60.0796,How much did you LIKE the movements you just watched?,30,How much ARTISTIC SKILL was involved in the movements you just watched?,34,30,7.4742,34,6.8612,space,1.6498,,60.0797,62.0795,0,1,1,4,1,stimuli/MRes_Dance1_Part7_bw.mp4,1,6,,,,,,,,,,,,,,,,,,,,,,,,,,,,,,,,,,,,,,,,,,,,,,,,,,,,,,,,,,,,,,,,,,,,,,,,,,,,,,,
,,,,,527982,001,2026-06-16_15h23.37.011,AIDance_3Blocks_AI2026_v5,2026.1.2,MacIntel,119.047619,,,,,,,,,,,,,,,,,,,,,,m,,,,,,,,,,,,,,,,,,,,,,,,,62.0797,71.8461,How much did you LIKE the movements you just watched?,30,How much ARTISTIC SKILL was involved in the movements you just watched?,42,30,8.8292,42,9.5202,space,3.7561,,71.8462,73.849,0,2,2,29,1,stimuli/AI_new13_bw_LUM.mp4,3,7,,,,,,,,,,,,,,,,,,,,,,,,,,,,,,,,,,,,,,,,,,,,,,,,,,,,,,,,,,,,,,,,,,,,,,,,,,,,,,,
,,,,,527982,001,2026-06-16_15h23.37.011,AIDance_3Blocks_AI2026_v5,2026.1.2,MacIntel,119.047619,,,,,,,,,,,,,,,,,,,,,,m,,,,,,,,,,,,,,,,,,,,,,,,,73.8502,82.9292,How much ARTISTIC SKILL was involved in the movements you just watched?,82,How much did you LIKE the movements you just watched?,42,82,8.5232,42,7.8705,space,3.0693,,82.9294,84.9292,0,3,3,11,1,stimuli/AI_5_bw_LUM.mp4,2,7,,,,,,,,,,,,,,,,,,,,,,,,,,,,,,,,,,,,,,,,,,,,,,,,,,,,,,,,,,,,,,,,,,,,,,,,,,,,,,,
,,,,,527982,001,2026-06-16_15h23.37.011,AIDance_3Blocks_AI2026_v5,2026.1.2,MacIntel,119.047619,,,,,,,,,,,,,,,,,,,,,,m,,,,,,,,,,,,,,,,,,,,,,,,,84.9298,94.4125,How much did you LIKE the movements you just watched?,82,How much ARTISTIC SKILL was involved in the movements you just watched?,48,82,8.7237,48,9.2693,space,3.4706,,94.4126,96.4123,0,4,4,26,1,stimuli/AI_new9_bw_LUM.mp4,3,7,,,,,,,,,,,,,,,,,,,,,,,,,,,,,,,,,,,,,,,,,,,,,,,,,,,,,,,,,,,,,,,,,,,,,,,,,,,,,,,
,,,,,527982,001,2026-06-16_15h23.37.011,AIDance_3Blocks_AI2026_v5,2026.1.2,MacIntel,119.047619,,,,,,,,,,,,,,,,,,,,,,m,,,,,,,,,,,,,,,,,,,,,,,,,96.4129,105.0624,How much ARTISTIC SKILL was involved in the movements you just watched?,33,How much did you LIKE the movements you just watched?,48,33,8.394,48,7.7444,space,2.642,,105.0625,107.0623,0,5,5,0,1,stimuli/MRes_Dance1_Part1_bw.mp4,1,7,,,,,,,,,,,,,,,,,,,,,,,,,,,,,,,,,,,,,,,,,,,,,,,,,,,,,,,,,,,,,,,,,,,,,,,,,,,,,,,
,,,,,527982,001,2026-06-16_15h23.37.011,AIDance_3Blocks_AI2026_v5,2026.1.2,MacIntel,119.047619,,,,,,,,,,,,,,,,,,,,,,m,,,,,,,,,,,,,,,,,,,,,,,,,107.0626,127.4945,How much ARTISTIC SKILL was involved in the movements you just watched?,33,How much did you LIKE the movements you just watched?,57,33,12.0108,57,12.8575,space,14.4125,,127.4946,129.4973,0,6,6,5,1,stimuli/MRes_Dance2_Part1_bw.mp4,1,6,,,,,,,,,,,,,,,,,,,,,,,,,,,,,,,,,,,,,,,,,,,,,,,,,,,,,,,,,,,,,,,,,,,,,,,,,,,,,,,
,,,,,527982,001,2026-06-16_15h23.37.011,AIDance_3Blocks_AI2026_v5,2026.1.2,MacIntel,119.047619,,,,,,,,,,,,,,,,,,,,,,m,,,,,,,,,,,,,,,,,,,,,,,,,129.4977,138.3328,How much ARTISTIC SKILL was involved in the movements you just watched?,57,How much did you LIKE the movements you just watched?,57,57,8.5373,57,7.846,space,2.799,,138.3329,140.3336,0,7,7,24,1,stimuli/AI_new6_bw_LUM.mp4,3,7,,,,,,,,,,,,,,,,,,,,,,,,,,,,,,,,,,,,,,,,,,,,,,,,,,,,,,,,,,,,,,,,,,,,,,,,,,,,,,,
,,,,,527982,001,2026-06-16_15h23.37.011,AIDance_3Blocks_AI2026_v5,2026.1.2,MacIntel,119.047619,,,,,,,,,,,,,,,,,,,,,,m,,,,,,,,,,,,,,,,,,,,,,,,,140.3351,150.5984,How much did you LIKE the movements you just watched?,57,How much ARTISTIC SKILL was involved in the movements you just watched?,22,57,9.1248,22,9.6957,space,4.2288,,150.5986,152.6004,0,8,8,12,1,stimuli/AI_7_bw_LUM.mp4,2,7,,,,,,,,,,,,,,,,,,,,,,,,,,,,,,,,,,,,,,,,,,,,,,,,,,,,,,,,,,,,,,,,,,,,,,,,,,,,,,,
,,,,,527982,001,2026-06-16_15h23.37.011,AIDance_3Blocks_AI2026_v5,2026.1.2,MacIntel,119.047619,,,,,,,,,,,,,,,,,,,,,,m,,,,,,,,,,,,,,,,,,,,,,,,,152.6024,186.9655,How much ARTISTIC SKILL was involved in the movements you just watched?,60,How much did you LIKE the movements you just watched?,18,60,34.1342,18,33.2588,space,28.3077,,186.9656,188.9652,0,9,9,6,1,stimuli/MRes_Dance2_Part2_bw.mp4,1,8,,,,,,,,,,,,,,,,,,,,,,,,,,,,,,,,,,,,,,,,,,,,,,,,,,,,,,,,,,,,,,,,,,,,,,,,,,,,,,,
,,,,,527982,001,2026-06-16_15h23.37.011,AIDance_3Blocks_AI2026_v5,2026.1.2,MacIntel,119.047619,,,,,,,,,,,,,,,,,,,,,,m,,,,,,,,,,,,,,,,,,,,,,,,,188.9658,197.8654,How much did you LIKE the movements you just watched?,60,How much ARTISTIC SKILL was involved in the movements you just watched?,29,60,7.952,29,8.7069,space,2.873,,197.8655,199.8665,0,10,10,20,1,stimuli/AI_new1_bw_LUM.mp4,3,7,,,,,,,,,,,,,,,,,,,,,,,,,,,,,,,,,,,,,,,,,,,,,,,,,,,,,,,,,,,,,,,,,,,,,,,,,,,,,,,
,,,,,527982,001,2026-06-16_15h23.37.011,AIDance_3Blocks_AI2026_v5,2026.1.2,MacIntel,119.047619,,,,,,,,,,,,,,,,,,,,,,m,,,,,,,,,,,,,,,,,,,,,,,,,199.8679,208.5644,How much ARTISTIC SKILL was involved in the movements you just watched?,18,How much did you LIKE the movements you just watched?,29,18,8.379,29,7.4142,space,2.6354,,208.5645,210.5659,0,11,11,2,1,stimuli/MRes_Dance1_Part4_bw.mp4,1,6,,,,,,,,,,,,,,,,,,,,,,,,,,,,,,,,,,,,,,,,,,,,,,,,,,,,,,,,,,,,,,,,,,,,,,,,,,,,,,,
,,,,,527982,001,2026-06-16_15h23.37.011,AIDance_3Blocks_AI2026_v5,2026.1.2,MacIntel,119.047619,,,,,,,,,,,,,,,,,,,,,,m,,,,,,,,,,,,,,,,,,,,,,,,,210.5673,221.5318,How much did you LIKE the movements you just watched?,53,How much ARTISTIC SKILL was involved in the movements you just watched?,75,53,9.2975,75,10.3893,space,4.9002,,221.5319,223.5315,0,12,12,10,1,stimuli/AI_4_bw_LUM.mp4,2,7,,,,,,,,,,,,,,,,,,,,,,,,,,,,,,,,,,,,,,,,,,,,,,,,,,,,,,,,,,,,,,,,,,,,,,,,,,,,,,,
,,,,,527982,001,2026-06-16_15h23.37.011,AIDance_3Blocks_AI2026_v5,2026.1.2,MacIntel,119.047619,,,,,,,,,,,,,,,,,,,,,,m,,,,,,,,,,,,,,,,,,,,,,,,,223.5321,232.9934,How much ARTISTIC SKILL was involved in the movements you just watched?,88,How much did you LIKE the movements you just watched?,84,88,8.5062,84,7.8982,space,3.4264,,232.9935,234.9945,0,13,13,17,1,stimuli/AI_18_bw_LUM.mp4,2,7,,,,,,,,,,,,,,,,,,,,,,,,,,,,,,,,,,,,,,,,,,,,,,,,,,,,,,,,,,,,,,,,,,,,,,,,,,,,,,,
,,,,,527982,001,2026-06-16_15h23.37.011,AIDance_3Blocks_AI2026_v5,2026.1.2,MacIntel,119.047619,,,,,,,,,,,,,,,,,,,,,,m,,,,,,,,,,,,,,,,,,,,,,,,,234.996,257.9237,How much did you LIKE the movements you just watched?,91,How much ARTISTIC SKILL was involved in the movements you just watched?,96,91,20.8814,96,22.0349,space,16.8725,,257.9239,259.9229,0,14,14,27,1,stimuli/AI_new11_bw_LUM.mp4,3,7,,,,,,,,,,,,,,,,,,,,,,,,,,,,,,,,,,,,,,,,,,,,,,,,,,,,,,,,,,,,,,,,,,,,,,,,,,,,,,,
,,,,,527982,001,2026-06-16_15h23.37.011,AIDance_3Blocks_AI2026_v5,2026.1.2,MacIntel,119.047619,,,,,,,,,,,,,,,,,,,,,,m,,,,,,,,,,,,,,,,,,,,,,,,,259.9235,269.5563,How much ARTISTIC SKILL was involved in the movements you just watched?,95,How much did you LIKE the movements you just watched?,98,95,9.109,98,7.6977,space,3.5841,,269.5564,271.5552,0,15,15,15,1,stimuli/AI_14_bw_LUM.mp4,2,7,,,,,,,,,,,,,,,,,,,,,,,,,,,,,,,,,,,,,,,,,,,,,,,,,,,,,,,,,,,,,,,,,,,,,,,,,,,,,,,
,,,,,527982,001,2026-06-16_15h23.37.011,AIDance_3Blocks_AI2026_v5,2026.1.2,MacIntel,119.047619,,,,,,,,,,,,,,,,,,,,,,m,,,,,,,,,,,,,,,,,,,,,,,,,271.5558,286.2976,How much did you LIKE the movements you just watched?,68,How much ARTISTIC SKILL was involved in the movements you just watched?,50,68,13.5862,50,14.4358,space,8.6931,,286.2978,288.2974,0,16,16,16,1,stimuli/AI_16_bw_LUM.mp4,2,7,,,,,,,,,,,,,,,,,,,,,,,,,,,,,,,,,,,,,,,,,,,,,,,,,,,,,,,,,,,,,,,,,,,,,,,,,,,,,,,
,,,,,527982,001,2026-06-16_15h23.37.011,AIDance_3Blocks_AI2026_v5,2026.1.2,MacIntel,119.047619,,,,,,,,,,,,,,,,,,,,,,m,,,,,,,,,,,,,,,,,,,,,,,,,288.298,298.3975,How much ARTISTIC SKILL was involved in the movements you just watched?,21,How much did you LIKE the movements you just watched?,32,21,9.7162,32,8.9517,space,4.0394,,298.3976,300.3968,0,17,17,8,1,stimuli/MRes_Dance2_Part6_bw.mp4,1,6,,,,,,,,,,,,,,,,,,,,,,,,,,,,,,,,,,,,,,,,,,,,,,,,,,,,,,,,,,,,,,,,,,,,,,,,,,,,,,,
,,,,,527982,001,2026-06-16_15h23.37.011,AIDance_3Blocks_AI2026_v5,2026.1.2,MacIntel,119.047619,,,,,,,,,,,,,,,,,,,,,,m,,,,,,,,,,,,,,,,,,,,,,,,,300.3971,313.3968,How much ARTISTIC SKILL was involved in the movements you just watched?,28,How much did you LIKE the movements you just watched?,44,28,11.0743,44,12.3913,space,6.9426,,313.3969,315.3969,0,18,18,14,1,stimuli/AI_12_bw_LUM.mp4,2,7,,,,,,,,,,,,,,,,,,,,,,,,,,,,,,,,,,,,,,,,,,,,,,,,,,,,,,,,,,,,,,,,,,,,,,,,,,,,,,,
,,,,,527982,001,2026-06-16_15h23.37.011,AIDance_3Blocks_AI2026_v5,2026.1.2,MacIntel,119.047619,,,,,,,,,,,,,,,,,,,,,,m,,,,,,,,,,,,,,,,,,,,,,,,,315.3975,332.6304,How much did you LIKE the movements you just watched?,9,How much ARTISTIC SKILL was involved in the movements you just watched?,23,9,16.8576,23,15.8934,space,11.2223,,332.6306,334.6308,0,19,19,25,1,stimuli/AI_new8_bw_LUM.mp4,3,7,,,,,,,,,,,,,,,,,,,,,,,,,,,,,,,,,,,,,,,,,,,,,,,,,,,,,,,,,,,,,,,,,,,,,,,,,,,,,,,
,,,,,527982,001,2026-06-16_15h23.37.011,AIDance_3Blocks_AI2026_v5,2026.1.2,MacIntel,119.047619,,,,,,,,,,,,,,,,,,,,,,m,,,,,,,,,,,,,,,,,,,,,,,,,334.6327,344.4928,How much ARTISTIC SKILL was involved in the movements you just watched?,25,How much did you LIKE the movements you just watched?,57,25,8.3758,57,9.2179,space,3.7979,,344.4929,346.493,0,20,20,18,1,stimuli/AI_20_bw_LUM.mp4,2,7,,,,,,,,,,,,,,,,,,,,,,,,,,,,,,,,,,,,,,,,,,,,,,,,,,,,,,,,,,,,,,,,,,,,,,,,,,,,,,,
,,,,,527982,001,2026-06-16_15h23.37.011,AIDance_3Blocks_AI2026_v5,2026.1.2,MacIntel,119.047619,,,,,,,,,,,,,,,,,,,,,,m,,,,,,,,,,,,,,,,,,,,,,,,,346.4937,358.3267,How much ARTISTIC SKILL was involved in the movements you just watched?,89,How much did you LIKE the movements you just watched?,63,89,11.1766,63,10.5425,space,5.7852,,358.327,360.3262,0,21,21,7,1,stimuli/MRes_Dance2_Part5_bw.mp4,1,9,,,,,,,,,,,,,,,,,,,,,,,,,,,,,,,,,,,,,,,,,,,,,,,,,,,,,,,,,,,,,,,,,,,,,,,,,,,,,,,
,,,,,527982,001,2026-06-16_15h23.37.011,AIDance_3Blocks_AI2026_v5,2026.1.2,MacIntel,119.047619,,,,,,,,,,,,,,,,,,,,,,m,,,,,,,,,,,,,,,,,,,,,,,,,360.3264,372.7632,How much ARTISTIC SKILL was involved in the movements you just watched?,56,How much did you LIKE the movements you just watched?,29,56,10.3239,29,11.4688,space,6.3995,,372.7633,374.7639,0,22,22,9,1,stimuli/MRes_Dance2_Part8_bw.mp4,1,7,,,,,,,,,,,,,,,,,,,,,,,,,,,,,,,,,,,,,,,,,,,,,,,,,,,,,,,,,,,,,,,,,,,,,,,,,,,,,,,
,,,,,527982,001,2026-06-16_15h23.37.011,AIDance_3Blocks_AI2026_v5,2026.1.2,MacIntel,119.047619,,,,,,,,,,,,,,,,,,,,,,m,,,,,,,,,,,,,,,,,,,,,,,,,374.7649,385.5257,How much ARTISTIC SKILL was involved in the movements you just watched?,17,How much did you LIKE the movements you just watched?,22,17,10.2518,22,8.7143,space,4.7101,,385.5257,387.5255,0,23,23,28,1,stimuli/AI_new12_bw_LUM.mp4,3,7,,,,,,,,,,,,,,,,,,,,,,,,,,,,,,,,,,,,,,,,,,,,,,,,,,,,,,,,,,,,,,,,,,,,,,,,,,,,,,,
,,,,,527982,001,2026-06-16_15h23.37.011,AIDance_3Blocks_AI2026_v5,2026.1.2,MacIntel,119.047619,,,,,,,,,,,,,,,,,,,,,,m,,,,,,,,,,,,,,,,,,,,,,,,,387.526,398.5584,How much did you LIKE the movements you just watched?,41,How much ARTISTIC SKILL was involved in the movements you just watched?,84,41,8.8073,84,9.9197,space,4.9938,,398.5585,400.5586,0,24,24,22,1,stimuli/AI_new3_bw_LUM.mp4,3,7,,,,,,,,,,,,,,,,,,,,,,,,,,,,,,,,,,,,,,,,,,,,,,,,,,,,,,,,,,,,,,,,,,,,,,,,,,,,,,,
,,,,,527982,001,2026-06-16_15h23.37.011,AIDance_3Blocks_AI2026_v5,2026.1.2,MacIntel,119.047619,,,,,,,,,,,,,,,,,,,,,,m,,,,,,,,,,,,,,,,,,,,,,,,,400.5589,413.5252,How much did you LIKE the movements you just watched?,82,How much ARTISTIC SKILL was involved in the movements you just watched?,45,82,12.7503,45,11.2568,space,6.9032,,413.5253,415.5256,0,25,25,23,1,stimuli/AI_new5_bw_LUM.mp4,3,7,,,,,,,,,,,,,,,,,,,,,,,,,,,,,,,,,,,,,,,,,,,,,,,,,,,,,,,,,,,,,,,,,,,,,,,,,,,,,,,
,,,,,527982,001,2026-06-16_15h23.37.011,AIDance_3Blocks_AI2026_v5,2026.1.2,MacIntel,119.047619,,,,,,,,,,,,,,,,,,,,,,m,,,,,,,,,,,,,,,,,,,,,,,,,415.5272,430.2208,How much ARTISTIC SKILL was involved in the movements you just watched?,15,How much did you LIKE the movements you just watched?,31,15,14.1715,31,13.377,space,8.6612,,430.2208,432.2204,0,26,26,21,1,stimuli/AI_new2_bw_LUM.mp4,3,7,,,,,,,,,,,,,,,,,,,,,,,,,,,,,,,,,,,,,,,,,,,,,,,,,,,,,,,,,,,,,,,,,,,,,,,,,,,,,,,
,,,,,527982,001,2026-06-16_15h23.37.011,AIDance_3Blocks_AI2026_v5,2026.1.2,MacIntel,119.047619,,,,,,,,,,,,,,,,,,,,,,m,,,,,,,,,,,,,,,,,,,,,,,,,432.221,443.3865,How much did you LIKE the movements you just watched?,31,How much ARTISTIC SKILL was involved in the movements you just watched?,70,31,9.6573,70,10.7856,space,5.1545,,443.3866,445.3863,0,27,27,1,1,stimuli/MRes_Dance1_Part3_bw.mp4,1,7,,,,,,,,,,,,,,,,,,,,,,,,,,,,,,,,,,,,,,,,,,,,,,,,,,,,,,,,,,,,,,,,,,,,,,,,,,,,,,,
,,,,,527982,001,2026-06-16_15h23.37.011,AIDance_3Blocks_AI2026_v5,2026.1.2,MacIntel,119.047619,,,,,,,,,,,,,,,,,,,,,,m,,,,,,,,,,,,,,,,,,,,,,,,,445.3869,460.2247,How much ARTISTIC SKILL was involved in the movements you just watched?,81,How much did you LIKE the movements you just watched?,79,81,13.0357,79,11.5626,space,8.819,,460.2247,462.225,0,28,28,19,1,stimuli/AI_22_bw_LUM.mp4,2,7,,,,,,,,,,,,,,,,,,,,,,,,,,,,,,,,,,,,,,,,,,,,,,,,,,,,,,,,,,,,,,,,,,,,,,,,,,,,,,,
,,,,,527982,001,2026-06-16_15h23.37.011,AIDance_3Blocks_AI2026_v5,2026.1.2,MacIntel,119.047619,,,,,,,,,,,,,,,,,,,,,,m,,,,,,,,,,,,,,,,,,,,,,,,,462.2261,491.6618,How much did you LIKE the movements you just watched?,81,How much ARTISTIC SKILL was involved in the movements you just watched?,57,81,27.792,57,28.9062,space,23.3917,,491.6619,493.6617,0,29,29,3,1,stimuli/MRes_Dance1_Part6_bw.mp4,1,6,,,,,,,,,,,,,,,,,,,,,,,,,,,,,,,,,,,,,,,,,,,,,,,,,,,,,,,,,,,,,,,,,,,,,,,,,,,,,,,
,,,,,527982,001,2026-06-16_15h23.37.011,AIDance_3Blocks_AI2026_v5,2026.1.2,MacIntel,119.047619,,,,,,,,,,,,,,,,,,,,,,m,,,,,,,,,,,,,,,,,,,,,,,,,,,,,,,,,,,,,,,,,,,,,,,,493.6621,504.6674,How much ARTISTIC SKILL was involved in the movements you just watched?,0,How much did you LIKE the movements you just watched?,0,0,8.0893,0,9.7832,space,4.9326,,,,,,,,,,,,,,,,,,,,,,,,,,,,,,,,,,,,,,,,,,,,,,,,,,,,,,,,,,,,,,,,,,,
,,,,,527982,001,2026-06-16_15h23.37.011,AIDance_3Blocks_AI2026_v5,2026.1.2,MacIntel,119.047619,,,,,,,,,,,,,,,,,,,,,,m,,,,,,,,,,,,,,,,,,,,,,,,,,,,,,,,,,,,,,,,,,,,,,,,,,,,,,,,,,,,,504.6676,506.0658,space,0.3521,,,,,,,,,,,,,,,,,,,,,,,,,,,,,,,,,,,,,,,,,,,,,,,,,,,,,,,,,,,,,,
,,,,,527982,001,2026-06-16_15h23.37.011,AIDance_3Blocks_AI2026_v5,2026.1.2,MacIntel,119.047619,,,,,,,,,,,,,,,,,,,,,,m,,,,,,,,,,,,,,,,,,,,,,,,,,,,,,,,,,,,,,515.77,517.7697,,,,,,stimuli/AI_new8_bw_LUM.mp4,3,7,,,,,,,,,,,,,,,,,,,506.0707,515.7698,42,9.1814,space,3.6602,,0,0,0,25,1,,,,,,,,,,,,,,,,,,,,,,,,,,,,,,,,,,,,,,,,,,,,,,,,,
,,,,,527982,001,2026-06-16_15h23.37.011,AIDance_3Blocks_AI2026_v5,2026.1.2,MacIntel,119.047619,,,,,,,,,,,,,,,,,,,,,,m,,,,,,,,,,,,,,,,,,,,,,,,,,,,,,,,,,,,,,526.6697,528.6696,,,,,,stimuli/AI_18_bw_LUM.mp4,2,7,,,,,,,,,,,,,,,,,,,517.77,526.6696,59,8.6908,space,2.8791,,0,1,1,17,1,,,,,,,,,,,,,,,,,,,,,,,,,,,,,,,,,,,,,,,,,,,,,,,,,
,,,,,527982,001,2026-06-16_15h23.37.011,AIDance_3Blocks_AI2026_v5,2026.1.2,MacIntel,119.047619,,,,,,,,,,,,,,,,,,,,,,m,,,,,,,,,,,,,,,,,,,,,,,,,,,,,,,,,,,,,,537.6368,539.6367,,,,,,stimuli/MRes_Dance1_Part1_bw.mp4,1,7,,,,,,,,,,,,,,,,,,,528.6699,537.6365,59,8.332,space,2.9313,,0,2,2,0,1,,,,,,,,,,,,,,,,,,,,,,,,,,,,,,,,,,,,,,,,,,,,,,,,,
,,,,,527982,001,2026-06-16_15h23.37.011,AIDance_3Blocks_AI2026_v5,2026.1.2,MacIntel,119.047619,,,,,,,,,,,,,,,,,,,,,,m,,,,,,,,,,,,,,,,,,,,,,,,,,,,,,,,,,,,,,550.6361,552.6363,,,,,,stimuli/AI_12_bw_LUM.mp4,2,7,,,,,,,,,,,,,,,,,,,539.6376,550.6361,51,10.702,space,4.9633,,0,3,3,14,1,,,,,,,,,,,,,,,,,,,,,,,,,,,,,,,,,,,,,,,,,,,,,,,,,
,,,,,527982,001,2026-06-16_15h23.37.011,AIDance_3Blocks_AI2026_v5,2026.1.2,MacIntel,119.047619,,,,,,,,,,,,,,,,,,,,,,m,,,,,,,,,,,,,,,,,,,,,,,,,,,,,,,,,,,,,,560.1359,562.1358,,,,,,stimuli/MRes_Dance1_Part6_bw.mp4,1,6,,,,,,,,,,,,,,,,,,,552.6369,560.1358,39,7.2431,space,1.4367,,0,4,4,3,1,,,,,,,,,,,,,,,,,,,,,,,,,,,,,,,,,,,,,,,,,,,,,,,,,
,,,,,527982,001,2026-06-16_15h23.37.011,AIDance_3Blocks_AI2026_v5,2026.1.2,MacIntel,119.047619,,,,,,,,,,,,,,,,,,,,,,m,,,,,,,,,,,,,,,,,,,,,,,,,,,,,,,,,,,,,,570.5026,572.5024,,,,,,stimuli/MRes_Dance1_Part7_bw.mp4,1,6,,,,,,,,,,,,,,,,,,,562.1361,570.5025,35,7.5245,space,2.3356,,0,5,5,4,1,,,,,,,,,,,,,,,,,,,,,,,,,,,,,,,,,,,,,,,,,,,,,,,,,
,,,,,527982,001,2026-06-16_15h23.37.011,AIDance_3Blocks_AI2026_v5,2026.1.2,MacIntel,119.047619,,,,,,,,,,,,,,,,,,,,,,m,,,,,,,,,,,,,,,,,,,,,,,,,,,,,,,,,,,,,,582.1025,584.1027,,,,,,stimuli/MRes_Dance2_Part2_bw.mp4,1,8,,,,,,,,,,,,,,,,,,,572.5027,582.1024,25,9.3569,space,3.5663,,0,6,6,6,1,,,,,,,,,,,,,,,,,,,,,,,,,,,,,,,,,,,,,,,,,,,,,,,,,
,,,,,527982,001,2026-06-16_15h23.37.011,AIDance_3Blocks_AI2026_v5,2026.1.2,MacIntel,119.047619,,,,,,,,,,,,,,,,,,,,,,m,,,,,,,,,,,,,,,,,,,,,,,,,,,,,,,,,,,,,,592.5315,594.5313,,,,,,stimuli/AI_new13_bw_LUM.mp4,3,7,,,,,,,,,,,,,,,,,,,584.1033,592.5314,23,8.2093,space,2.3817,,0,7,7,29,1,,,,,,,,,,,,,,,,,,,,,,,,,,,,,,,,,,,,,,,,,,,,,,,,,
,,,,,527982,001,2026-06-16_15h23.37.011,AIDance_3Blocks_AI2026_v5,2026.1.2,MacIntel,119.047619,,,,,,,,,,,,,,,,,,,,,,m,,,,,,,,,,,,,,,,,,,,,,,,,,,,,,,,,,,,,,602.7979,604.7992,,,,,,stimuli/AI_8_bw_LUM.mp4,2,7,,,,,,,,,,,,,,,,,,,594.5316,602.7978,18,7.9864,space,2.2077,,0,8,8,13,1,,,,,,,,,,,,,,,,,,,,,,,,,,,,,,,,,,,,,,,,,,,,,,,,,
,,,,,527982,001,2026-06-16_15h23.37.011,AIDance_3Blocks_AI2026_v5,2026.1.2,MacIntel,119.047619,,,,,,,,,,,,,,,,,,,,,,m,,,,,,,,,,,,,,,,,,,,,,,,,,,,,,,,,,,,,,629.4024,631.4011,,,,,,stimuli/AI_new11_bw_LUM.mp4,3,7,,,,,,,,,,,,,,,,,,,604.7999,629.4021,18,24.246,space,18.575,,0,9,9,27,1,,,,,,,,,,,,,,,,,,,,,,,,,,,,,,,,,,,,,,,,,,,,,,,,,
,,,,,527982,001,2026-06-16_15h23.37.011,AIDance_3Blocks_AI2026_v5,2026.1.2,MacIntel,119.047619,,,,,,,,,,,,,,,,,,,,,,m,,,,,,,,,,,,,,,,,,,,,,,,,,,,,,,,,,,,,,639.1351,641.1353,,,,,,stimuli/MRes_Dance2_Part6_bw.mp4,1,6,,,,,,,,,,,,,,,,,,,631.4014,639.1349,51,7.2659,space,1.7161,,0,10,10,8,1,,,,,,,,,,,,,,,,,,,,,,,,,,,,,,,,,,,,,,,,,,,,,,,,,
,,,,,527982,001,2026-06-16_15h23.37.011,AIDance_3Blocks_AI2026_v5,2026.1.2,MacIntel,119.047619,,,,,,,,,,,,,,,,,,,,,,m,,,,,,,,,,,,,,,,,,,,,,,,,,,,,,,,,,,,,,649.3349,651.3343,,,,,,stimuli/AI_20_bw_LUM.mp4,2,7,,,,,,,,,,,,,,,,,,,641.1362,649.3348,72,8.0308,space,2.1339,,0,11,11,18,1,,,,,,,,,,,,,,,,,,,,,,,,,,,,,,,,,,,,,,,,,,,,,,,,,
,,,,,527982,001,2026-06-16_15h23.37.011,AIDance_3Blocks_AI2026_v5,2026.1.2,MacIntel,119.047619,,,,,,,,,,,,,,,,,,,,,,m,,,,,,,,,,,,,,,,,,,,,,,,,,,,,,,,,,,,,,659.6672,661.6679,,,,,,stimuli/AI_7_bw_LUM.mp4,2,7,,,,,,,,,,,,,,,,,,,651.3346,659.6671,66,8.0746,space,2.303,,0,12,12,12,1,,,,,,,,,,,,,,,,,,,,,,,,,,,,,,,,,,,,,,,,,,,,,,,,,
,,,,,527982,001,2026-06-16_15h23.37.011,AIDance_3Blocks_AI2026_v5,2026.1.2,MacIntel,119.047619,,,,,,,,,,,,,,,,,,,,,,m,,,,,,,,,,,,,,,,,,,,,,,,,,,,,,,,,,,,,,673.997,675.9973,,,,,,stimuli/AI_new3_bw_LUM.mp4,3,7,,,,,,,,,,,,,,,,,,,661.6682,673.9969,73,12.0227,space,6.2889,,0,13,13,22,1,,,,,,,,,,,,,,,,,,,,,,,,,,,,,,,,,,,,,,,,,,,,,,,,,
,,,,,527982,001,2026-06-16_15h23.37.011,AIDance_3Blocks_AI2026_v5,2026.1.2,MacIntel,119.047619,,,,,,,,,,,,,,,,,,,,,,m,,,,,,,,,,,,,,,,,,,,,,,,,,,,,,,,,,,,,,684.2963,686.2973,,,,,,stimuli/AI_new2_bw_LUM.mp4,3,7,,,,,,,,,,,,,,,,,,,675.9978,684.2963,60,8.0471,space,2.244,,0,14,14,21,1,,,,,,,,,,,,,,,,,,,,,,,,,,,,,,,,,,,,,,,,,,,,,,,,,
,,,,,527982,001,2026-06-16_15h23.37.011,AIDance_3Blocks_AI2026_v5,2026.1.2,MacIntel,119.047619,,,,,,,,,,,,,,,,,,,,,,m,,,,,,,,,,,,,,,,,,,,,,,,,,,,,,,,,,,,,,694.6959,696.6958,,,,,,stimuli/AI_new5_bw_LUM.mp4,3,7,,,,,,,,,,,,,,,,,,,686.298,694.6958,34,8.2527,space,2.3383,,0,15,15,23,1,,,,,,,,,,,,,,,,,,,,,,,,,,,,,,,,,,,,,,,,,,,,,,,,,
,,,,,527982,001,2026-06-16_15h23.37.011,AIDance_3Blocks_AI2026_v5,2026.1.2,MacIntel,119.047619,,,,,,,,,,,,,,,,,,,,,,m,,,,,,,,,,,,,,,,,,,,,,,,,,,,,,,,,,,,,,712.0625,714.0631,,,,,,stimuli/MRes_Dance2_Part5_bw.mp4,1,9,,,,,,,,,,,,,,,,,,,696.6961,712.0624,28,15.1662,space,9.345,,0,16,16,7,1,,,,,,,,,,,,,,,,,,,,,,,,,,,,,,,,,,,,,,,,,,,,,,,,,
,,,,,527982,001,2026-06-16_15h23.37.011,AIDance_3Blocks_AI2026_v5,2026.1.2,MacIntel,119.047619,,,,,,,,,,,,,,,,,,,,,,m,,,,,,,,,,,,,,,,,,,,,,,,,,,,,,,,,,,,,,722.2632,724.263,,,,,,stimuli/AI_5_bw_LUM.mp4,2,7,,,,,,,,,,,,,,,,,,,714.0659,722.2631,12,7.9875,space,2.1479,,0,17,17,11,1,,,,,,,,,,,,,,,,,,,,,,,,,,,,,,,,,,,,,,,,,,,,,,,,,
,,,,,527982,001,2026-06-16_15h23.37.011,AIDance_3Blocks_AI2026_v5,2026.1.2,MacIntel,119.047619,,,,,,,,,,,,,,,,,,,,,,m,,,,,,,,,,,,,,,,,,,,,,,,,,,,,,,,,,,,,,735.763,737.7627,,,,,,stimuli/AI_22_bw_LUM.mp4,2,7,,,,,,,,,,,,,,,,,,,724.2633,735.7629,18,11.3648,space,5.4411,,0,18,18,19,1,,,,,,,,,,,,,,,,,,,,,,,,,,,,,,,,,,,,,,,,,,,,,,,,,
,,,,,527982,001,2026-06-16_15h23.37.011,AIDance_3Blocks_AI2026_v5,2026.1.2,MacIntel,119.047619,,,,,,,,,,,,,,,,,,,,,,m,,,,,,,,,,,,,,,,,,,,,,,,,,,,,,,,,,,,,,745.0961,747.0964,,,,,,stimuli/MRes_Dance2_Part1_bw.mp4,1,6,,,,,,,,,,,,,,,,,,,737.763,745.0961,34,7.0282,space,1.2818,,0,19,19,5,1,,,,,,,,,,,,,,,,,,,,,,,,,,,,,,,,,,,,,,,,,,,,,,,,,
,,,,,527982,001,2026-06-16_15h23.37.011,AIDance_3Blocks_AI2026_v5,2026.1.2,MacIntel,119.047619,,,,,,,,,,,,,,,,,,,,,,m,,,,,,,,,,,,,,,,,,,,,,,,,,,,,,,,,,,,,,754.9627,756.9625,,,,,,stimuli/AI_14_bw_LUM.mp4,2,7,,,,,,,,,,,,,,,,,,,747.0971,754.9626,59,7.7692,space,1.8272,,0,20,20,15,1,,,,,,,,,,,,,,,,,,,,,,,,,,,,,,,,,,,,,,,,,,,,,,,,,
,,,,,527982,001,2026-06-16_15h23.37.011,AIDance_3Blocks_AI2026_v5,2026.1.2,MacIntel,119.047619,,,,,,,,,,,,,,,,,,,,,,m,,,,,,,,,,,,,,,,,,,,,,,,,,,,,,,,,,,,,,765.0968,767.0958,,,,,,stimuli/AI_new9_bw_LUM.mp4,3,7,,,,,,,,,,,,,,,,,,,756.9628,765.0966,70,7.6987,space,2.1018,,0,21,21,26,1,,,,,,,,,,,,,,,,,,,,,,,,,,,,,,,,,,,,,,,,,,,,,,,,,
,,,,,527982,001,2026-06-16_15h23.37.011,AIDance_3Blocks_AI2026_v5,2026.1.2,MacIntel,119.047619,,,,,,,,,,,,,,,,,,,,,,m,,,,,,,,,,,,,,,,,,,,,,,,,,,,,,,,,,,,,,774.7626,776.7628,,,,,,stimuli/MRes_Dance2_Part8_bw.mp4,1,7,,,,,,,,,,,,,,,,,,,767.096,774.7625,45,7.5026,space,1.6149,,0,22,22,9,1,,,,,,,,,,,,,,,,,,,,,,,,,,,,,,,,,,,,,,,,,,,,,,,,,
,,,,,527982,001,2026-06-16_15h23.37.011,AIDance_3Blocks_AI2026_v5,2026.1.2,MacIntel,119.047619,,,,,,,,,,,,,,,,,,,,,,m,,,,,,,,,,,,,,,,,,,,,,,,,,,,,,,,,,,,,,784.6297,786.6289,,,,,,stimuli/AI_new12_bw_LUM.mp4,3,7,,,,,,,,,,,,,,,,,,,776.7636,784.6294,28,7.5928,space,1.8073,,0,23,23,28,1,,,,,,,,,,,,,,,,,,,,,,,,,,,,,,,,,,,,,,,,,,,,,,,,,
,,,,,527982,001,2026-06-16_15h23.37.011,AIDance_3Blocks_AI2026_v5,2026.1.2,MacIntel,119.047619,,,,,,,,,,,,,,,,,,,,,,m,,,,,,,,,,,,,,,,,,,,,,,,,,,,,,,,,,,,,,794.6289,796.6288,,,,,,stimuli/MRes_Dance1_Part4_bw.mp4,1,6,,,,,,,,,,,,,,,,,,,786.6292,794.6288,35,7.8019,space,1.9619,,0,24,24,2,1,,,,,,,,,,,,,,,,,,,,,,,,,,,,,,,,,,,,,,,,,,,,,,,,,
,,,,,527982,001,2026-06-16_15h23.37.011,AIDance_3Blocks_AI2026_v5,2026.1.2,MacIntel,119.047619,,,,,,,,,,,,,,,,,,,,,,m,,,,,,,,,,,,,,,,,,,,,,,,,,,,,,,,,,,,,,804.9997,806.9994,,,,,,stimuli/AI_new1_bw_LUM.mp4,3,7,,,,,,,,,,,,,,,,,,,796.6297,804.9997,57,8.1397,space,2.3305,,0,25,25,20,1,,,,,,,,,,,,,,,,,,,,,,,,,,,,,,,,,,,,,,,,,,,,,,,,,
,,,,,527982,001,2026-06-16_15h23.37.011,AIDance_3Blocks_AI2026_v5,2026.1.2,MacIntel,119.047619,,,,,,,,,,,,,,,,,,,,,,m,,,,,,,,,,,,,,,,,,,,,,,,,,,,,,,,,,,,,,815.2661,817.2665,,,,,,stimuli/AI_16_bw_LUM.mp4,2,7,,,,,,,,,,,,,,,,,,,806.9997,815.266,76,7.9777,space,2.2393,,0,26,26,16,1,,,,,,,,,,,,,,,,,,,,,,,,,,,,,,,,,,,,,,,,,,,,,,,,,
,,,,,527982,001,2026-06-16_15h23.37.011,AIDance_3Blocks_AI2026_v5,2026.1.2,MacIntel,119.047619,,,,,,,,,,,,,,,,,,,,,,m,,,,,,,,,,,,,,,,,,,,,,,,,,,,,,,,,,,,,,825.3661,827.3654,,,,,,stimuli/AI_4_bw_LUM.mp4,2,7,,,,,,,,,,,,,,,,,,,817.2675,825.366,51,7.9551,space,2.0545,,0,27,27,10,1,,,,,,,,,,,,,,,,,,,,,,,,,,,,,,,,,,,,,,,,,,,,,,,,,
,,,,,527982,001,2026-06-16_15h23.37.011,AIDance_3Blocks_AI2026_v5,2026.1.2,MacIntel,119.047619,,,,,,,,,,,,,,,,,,,,,,m,,,,,,,,,,,,,,,,,,,,,,,,,,,,,,,,,,,,,,835.5326,837.532,,,,,,stimuli/AI_new6_bw_LUM.mp4,3,7,,,,,,,,,,,,,,,,,,,827.3656,835.5325,35,8.0375,space,2.1543,,0,28,28,24,1,,,,,,,,,,,,,,,,,,,,,,,,,,,,,,,,,,,,,,,,,,,,,,,,,
,,,,,527982,001,2026-06-16_15h23.37.011,AIDance_3Blocks_AI2026_v5,2026.1.2,MacIntel,119.047619,,,,,,,,,,,,,,,,,,,,,,m,,,,,,,,,,,,,,,,,,,,,,,,,,,,,,,,,,,,,,845.3991,847.4,,,,,,stimuli/MRes_Dance1_Part3_bw.mp4,1,7,,,,,,,,,,,,,,,,,,,837.5323,845.399,30,7.5827,space,1.8332,,0,29,29,1,1,,,,,,,,,,,,,,,,,,,,,,,,,,,,,,,,,,,,,,,,,,,,,,,,,
,,,,,527982,001,2026-06-16_15h23.37.011,AIDance_3Blocks_AI2026_v5,2026.1.2,MacIntel,119.047619,,,,,,,,,,,,,,,,,,,,,,m,,,,,,,,,,,,,,,,,,,,,,,,,,,,,,,,,,,,,,,,,,,,,,,,,,,,,,,,,,,,,,,,,,,,,,,,,,,,,,847.401,857.5319,50,50,9.0338,space,4.063,,,,,,,,,,,,,,,,,,,,,,,,,,,,,,,,,,,,,,,,,,
,,,,,527982,001,2026-06-16_15h23.37.011,AIDance_3Blocks_AI2026_v5,2026.1.2,MacIntel,119.047619,,,,,,,,,,,,,,,,,,,,,,m,,,,,,,,,,,,,,,,,,,,,,,,,,,,,,,,,,,,,,,,,,,,,,,,,,,,,,,,,,,,,,,,,,,,,,,,,,,,,,,,,,,,,,857.532,858.9989,space,0.4072,,,,,,,,,,,,,,,,,,,,,,,,,,,,,,,,,,,,,
,,,,,527982,001,2026-06-16_15h23.37.011,AIDance_3Blocks_AI2026_v5,2026.1.2,MacIntel,119.047619,,,,,,,,,,,,,,,,,,,,,,m,,,,,,,,,,,,,,,,,,,,,,,,,,,,,,,,,,,,,,868.099,870.0986,,,,,,stimuli/AI_15_bw_LUM.mp4,2,7,,,,,,,,,,,,,,,,,,,,,,,,,,,,,,,,,,,,,,,,,,,,859.0023,868.099,How much did you LIKE the movements you just watched?,69,How much ARTISTIC SKILL was involved in the movements you just watched?,28,69,8.7993,28,8.2495,space,3.0584,,0,0,0,25,1,,,,,,,,,,,,,,,,,,
,,,,,527982,001,2026-06-16_15h23.37.011,AIDance_3Blocks_AI2026_v5,2026.1.2,MacIntel,119.047619,,,,,,,,,,,,,,,,,,,,,,m,,,,,,,,,,,,,,,,,,,,,,,,,,,,,,,,,,,,,,878.7611,880.757,,,,,,stimuli/AI_new1_bw_LUM.mp4,3,7,,,,,,,,,,,,,,,,,,,,,,,,,,,,,,,,,,,,,,,,,,,,870.099,878.7611,How much did you LIKE the movements you just watched?,58,How much ARTISTIC SKILL was involved in the movements you just watched?,66,58,7.6696,66,8.3496,space,2.6181,,0,1,1,32,1,,,,,,,,,,,,,,,,,,
,,,,,527982,001,2026-06-16_15h23.37.011,AIDance_3Blocks_AI2026_v5,2026.1.2,MacIntel,119.047619,,,,,,,,,,,,,,,,,,,,,,m,,,,,,,,,,,,,,,,,,,,,,,,,,,,,,,,,,,,,,891.0569,893.0565,,,,,,stimuli/MRes_Dance2_Part5_bw.mp4,1,9,,,,,,,,,,,,,,,,,,,,,,,,,,,,,,,,,,,,,,,,,,,,880.7577,891.0568,How much ARTISTIC SKILL was involved in the movements you just watched?,34,How much did you LIKE the movements you just watched?,75,34,10.1425,75,9.4698,space,4.2847,,0,2,2,12,1,,,,,,,,,,,,,,,,,,
,,,,,527982,001,2026-06-16_15h23.37.011,AIDance_3Blocks_AI2026_v5,2026.1.2,MacIntel,119.047619,,,,,,,,,,,,,,,,,,,,,,m,,,,,,,,,,,,,,,,,,,,,,,,,,,,,,,,,,,,,,902.1903,904.1899,,,,,,stimuli/AI_14_bw_LUM.mp4,2,7,,,,,,,,,,,,,,,,,,,,,,,,,,,,,,,,,,,,,,,,,,,,893.058,902.1901,How much did you LIKE the movements you just watched?,28,How much ARTISTIC SKILL was involved in the movements you just watched?,62,28,8.3862,62,9.0245,space,3.0945,,0,3,3,24,1,,,,,,,,,,,,,,,,,,
,,,,,527982,001,2026-06-16_15h23.37.011,AIDance_3Blocks_AI2026_v5,2026.1.2,MacIntel,119.047619,,,,,,,,,,,,,,,,,,,,,,m,,,,,,,,,,,,,,,,,,,,,,,,,,,,,,,,,,,,,,913.0568,915.0591,,,,,,stimuli/AI_new17_bw_LUM.mp4,3,7,,,,,,,,,,,,,,,,,,,,,,,,,,,,,,,,,,,,,,,,,,,,904.1904,913.0566,How much ARTISTIC SKILL was involved in the movements you just watched?,34,How much did you LIKE the movements you just watched?,46,34,8.7271,46,8.0237,space,2.818,,0,4,4,45,1,,,,,,,,,,,,,,,,,,
,,,,,527982,001,2026-06-16_15h23.37.011,AIDance_3Blocks_AI2026_v5,2026.1.2,MacIntel,119.047619,,,,,,,,,,,,,,,,,,,,,,m,,,,,,,,,,,,,,,,,,,,,,,,,,,,,,,,,,,,,,924.1561,926.1567,,,,,,stimuli/AI_2_bw_LUM.mp4,2,7,,,,,,,,,,,,,,,,,,,,,,,,,,,,,,,,,,,,,,,,,,,,915.0614,924.1561,How much did you LIKE the movements you just watched?,26,How much ARTISTIC SKILL was involved in the movements you just watched?,68,26,8.1367,68,8.739,space,3.0612,,0,5,5,16,1,,,,,,,,,,,,,,,,,,
,,,,,527982,001,2026-06-16_15h23.37.011,AIDance_3Blocks_AI2026_v5,2026.1.2,MacIntel,119.047619,,,,,,,,,,,,,,,,,,,,,,m,,,,,,,,,,,,,,,,,,,,,,,,,,,,,,,,,,,,,,934.2606,936.26,,,,,,stimuli/MRes_Dance1_Part6_bw.mp4,1,6,,,,,,,,,,,,,,,,,,,,,,,,,,,,,,,,,,,,,,,,,,,,926.1583,934.2605,How much ARTISTIC SKILL was involved in the movements you just watched?,88,How much did you LIKE the movements you just watched?,51,88,7.7189,51,6.8844,space,2.0565,,0,6,6,5,1,,,,,,,,,,,,,,,,,,
,,,,,527982,001,2026-06-16_15h23.37.011,AIDance_3Blocks_AI2026_v5,2026.1.2,MacIntel,119.047619,,,,,,,,,,,,,,,,,,,,,,m,,,,,,,,,,,,,,,,,,,,,,,,,,,,,,,,,,,,,,945.427,947.4277,,,,,,stimuli/AI_18_bw_LUM.mp4,2,7,,,,,,,,,,,,,,,,,,,,,,,,,,,,,,,,,,,,,,,,,,,,936.2606,945.4269,How much did you LIKE the movements you just watched?,64,How much ARTISTIC SKILL was involved in the movements you just watched?,30,64,8.403,30,9.0076,space,3.1594,,0,7,7,28,1,,,,,,,,,,,,,,,,,,
,,,,,527982,001,2026-06-16_15h23.37.011,AIDance_3Blocks_AI2026_v5,2026.1.2,MacIntel,119.047619,,,,,,,,,,,,,,,,,,,,,,m,,,,,,,,,,,,,,,,,,,,,,,,,,,,,,,,,,,,,,957.081,959.0808,,,,,,stimuli/MRes_Dance2_Part7_bw.mp4,1,6,,,,,,,,,,,,,,,,,,,,,,,,,,,,,,,,,,,,,,,,,,,,947.4294,957.0809,How much did you LIKE the movements you just watched?,26,How much ARTISTIC SKILL was involved in the movements you just watched?,20,26,9.3946,20,8.6246,space,3.5782,,0,8,8,14,1,,,,,,,,,,,,,,,,,,
,,,,,527982,001,2026-06-16_15h23.37.011,AIDance_3Blocks_AI2026_v5,2026.1.2,MacIntel,119.047619,,,,,,,,,,,,,,,,,,,,,,m,,,,,,,,,,,,,,,,,,,,,,,,,,,,,,,,,,,,,,968.0809,970.0803,,,,,,stimuli/AI_new14_bw_LUM.mp4,3,7,,,,,,,,,,,,,,,,,,,,,,,,,,,,,,,,,,,,,,,,,,,,959.0811,968.0808,How much did you LIKE the movements you just watched?,72,How much ARTISTIC SKILL was involved in the movements you just watched?,81,72,8.2269,81,8.8156,space,2.9449,,0,9,9,42,1,,,,,,,,,,,,,,,,,,
,,,,,527982,001,2026-06-16_15h23.37.011,AIDance_3Blocks_AI2026_v5,2026.1.2,MacIntel,119.047619,,,,,,,,,,,,,,,,,,,,,,m,,,,,,,,,,,,,,,,,,,,,,,,,,,,,,,,,,,,,,978.2141,980.2144,,,,,,stimuli/MRes_Dance1_Part7_bw.mp4,1,6,,,,,,,,,,,,,,,,,,,,,,,,,,,,,,,,,,,,,,,,,,,,970.0825,978.214,How much ARTISTIC SKILL was involved in the movements you just watched?,96,How much did you LIKE the movements you just watched?,92,96,7.9476,92,7.392,space,2.1007,,0,10,10,6,1,,,,,,,,,,,,,,,,,,
,,,,,527982,001,2026-06-16_15h23.37.011,AIDance_3Blocks_AI2026_v5,2026.1.2,MacIntel,119.047619,,,,,,,,,,,,,,,,,,,,,,m,,,,,,,,,,,,,,,,,,,,,,,,,,,,,,,,,,,,,,989.0141,991.0132,,,,,,stimuli/AI_5_bw_LUM.mp4,2,7,,,,,,,,,,,,,,,,,,,,,,,,,,,,,,,,,,,,,,,,,,,,980.2153,989.0139,How much ARTISTIC SKILL was involved in the movements you just watched?,83,How much did you LIKE the movements you just watched?,43,83,7.9726,43,8.5688,space,2.7356,,0,11,11,19,1,,,,,,,,,,,,,,,,,,
,,,,,527982,001,2026-06-16_15h23.37.011,AIDance_3Blocks_AI2026_v5,2026.1.2,MacIntel,119.047619,,,,,,,,,,,,,,,,,,,,,,m,,,,,,,,,,,,,,,,,,,,,,,,,,,,,,,,,,,,,,999.9181,1001.9186,,,,,,stimuli/MRes_Dance2_Part4_bw.mp4,1,7,,,,,,,,,,,,,,,,,,,,,,,,,,,,,,,,,,,,,,,,,,,,991.0135,999.9179,How much ARTISTIC SKILL was involved in the movements you just watched?,29,How much did you LIKE the movements you just watched?,29,29,8.2989,29,7.6501,space,2.8801,,0,12,12,11,1,,,,,,,,,,,,,,,,,,
,,,,,527982,001,2026-06-16_15h23.37.011,AIDance_3Blocks_AI2026_v5,2026.1.2,MacIntel,119.047619,,,,,,,,,,,,,,,,,,,,,,m,,,,,,,,,,,,,,,,,,,,,,,,,,,,,,,,,,,,,,1011.9513,1013.951,,,,,,stimuli/AI_new12_bw_LUM.mp4,3,7,,,,,,,,,,,,,,,,,,,,,,,,,,,,,,,,,,,,,,,,,,,,1001.9204,1011.9512,How much did you LIKE the movements you just watched?,64,How much ARTISTIC SKILL was involved in the movements you just watched?,31,64,9.5096,31,8.6255,space,3.9822,,0,13,13,40,1,,,,,,,,,,,,,,,,,,
,,,,,527982,001,2026-06-16_15h23.37.011,AIDance_3Blocks_AI2026_v5,2026.1.2,MacIntel,119.047619,,,,,,,,,,,,,,,,,,,,,,m,,,,,,,,,,,,,,,,,,,,,,,,,,,,,,,,,,,,,,1022.7501,1024.7508,,,,,,stimuli/AI_8_bw_LUM.mp4,2,7,,,,,,,,,,,,,,,,,,,,,,,,,,,,,,,,,,,,,,,,,,,,1013.9516,1022.7501,How much ARTISTIC SKILL was involved in the movements you just watched?,64,How much did you LIKE the movements you just watched?,35,64,7.9202,35,8.6356,space,2.7559,,0,14,14,22,1,,,,,,,,,,,,,,,,,,
,,,,,527982,001,2026-06-16_15h23.37.011,AIDance_3Blocks_AI2026_v5,2026.1.2,MacIntel,119.047619,,,,,,,,,,,,,,,,,,,,,,m,,,,,,,,,,,,,,,,,,,,,,,,,,,,,,,,,,,,,,1033.1168,1035.1172,,,,,,stimuli/MRes_Dance1_Part5_bw.mp4,1,6,,,,,,,,,,,,,,,,,,,,,,,,,,,,,,,,,,,,,,,,,,,,1024.7515,1033.1167,How much did you LIKE the movements you just watched?,25,How much ARTISTIC SKILL was involved in the movements you just watched?,31,25,8.0893,31,7.309,space,2.2981,,0,15,15,4,1,,,,,,,,,,,,,,,,,,
,,,,,527982,001,2026-06-16_15h23.37.011,AIDance_3Blocks_AI2026_v5,2026.1.2,MacIntel,119.047619,,,,,,,,,,,,,,,,,,,,,,m,,,,,,,,,,,,,,,,,,,,,,,,,,,,,,,,,,,,,,1044.3092,1046.3106,,,,,,stimuli/MRes_Dance1_Part1_bw.mp4,1,7,,,,,,,,,,,,,,,,,,,,,,,,,,,,,,,,,,,,,,,,,,,,1035.1177,1044.3091,How much ARTISTIC SKILL was involved in the movements you just watched?,47,How much did you LIKE the movements you just watched?,84,47,8.1368,84,8.977,space,3.1577,,0,16,16,0,1,,,,,,,,,,,,,,,,,,
,,,,,527982,001,2026-06-16_15h23.37.011,AIDance_3Blocks_AI2026_v5,2026.1.2,MacIntel,119.047619,,,,,,,,,,,,,,,,,,,,,,m,,,,,,,,,,,,,,,,,,,,,,,,,,,,,,,,,,,,,,1055.2414,1057.2422,,,,,,stimuli/MRes_Dance1_Part2_bw.mp4,1,7,,,,,,,,,,,,,,,,,,,,,,,,,,,,,,,,,,,,,,,,,,,,1046.3113,1055.2413,How much ARTISTIC SKILL was involved in the movements you just watched?,96,How much did you LIKE the movements you just watched?,92,96,8.7573,92,8.1516,space,2.8848,,0,17,17,1,1,,,,,,,,,,,,,,,,,,
,,,,,527982,001,2026-06-16_15h23.37.011,AIDance_3Blocks_AI2026_v5,2026.1.2,MacIntel,119.047619,,,,,,,,,,,,,,,,,,,,,,m,,,,,,,,,,,,,,,,,,,,,,,,,,,,,,,,,,,,,,1065.9422,1067.9424,,,,,,stimuli/AI_new15_bw_LUM.mp4,3,7,,,,,,,,,,,,,,,,,,,,,,,,,,,,,,,,,,,,,,,,,,,,1057.2431,1065.9421,How much did you LIKE the movements you just watched?,83,How much ARTISTIC SKILL was involved in the movements you just watched?,40,83,7.877,40,8.5157,space,2.6522,,0,18,18,43,1,,,,,,,,,,,,,,,,,,
,,,,,527982,001,2026-06-16_15h23.37.011,AIDance_3Blocks_AI2026_v5,2026.1.2,MacIntel,119.047619,,,,,,,,,,,,,,,,,,,,,,m,,,,,,,,,,,,,,,,,,,,,,,,,,,,,,,,,,,,,,1076.613,1078.612,,,,,,stimuli/AI_17_bw_LUM.mp4,2,7,,,,,,,,,,,,,,,,,,,,,,,,,,,,,,,,,,,,,,,,,,,,1067.9438,1076.6129,How much ARTISTIC SKILL was involved in the movements you just watched?,34,How much did you LIKE the movements you just watched?,30,34,8.5299,30,7.9224,space,2.641,,0,19,19,27,1,,,,,,,,,,,,,,,,,,
,,,,,527982,001,2026-06-16_15h23.37.011,AIDance_3Blocks_AI2026_v5,2026.1.2,MacIntel,119.047619,,,,,,,,,,,,,,,,,,,,,,m,,,,,,,,,,,,,,,,,,,,,,,,,,,,,,,,,,,,,,1087.7461,1089.7463,,,,,,stimuli/AI_new11_bw_LUM.mp4,3,7,,,,,,,,,,,,,,,,,,,,,,,,,,,,,,,,,,,,,,,,,,,,1078.6123,1087.746,How much ARTISTIC SKILL was involved in the movements you just watched?,25,How much did you LIKE the movements you just watched?,68,25,7.9779,68,8.9532,space,3.0644,,0,20,20,39,1,,,,,,,,,,,,,,,,,,
,,,,,527982,001,2026-06-16_15h23.37.011,AIDance_3Blocks_AI2026_v5,2026.1.2,MacIntel,119.047619,,,,,,,,,,,,,,,,,,,,,,m,,,,,,,,,,,,,,,,,,,,,,,,,,,,,,,,,,,,,,1098.2127,1100.2125,,,,,,stimuli/AI_new9_bw_LUM.mp4,3,7,,,,,,,,,,,,,,,,,,,,,,,,,,,,,,,,,,,,,,,,,,,,1089.7477,1098.2127,How much did you LIKE the movements you just watched?,86,How much ARTISTIC SKILL was involved in the movements you just watched?,59,86,8.2675,59,7.6031,space,2.3975,,0,21,21,38,1,,,,,,,,,,,,,,,,,,
,,,,,527982,001,2026-06-16_15h23.37.011,AIDance_3Blocks_AI2026_v5,2026.1.2,MacIntel,119.047619,,,,,,,,,,,,,,,,,,,,,,m,,,,,,,,,,,,,,,,,,,,,,,,,,,,,,,,,,,,,,1109.3458,1111.3468,,,,,,stimuli/AI_new16_bw_LUM.mp4,3,7,,,,,,,,,,,,,,,,,,,,,,,,,,,,,,,,,,,,,,,,,,,,1100.2134,1109.3457,How much ARTISTIC SKILL was involved in the movements you just watched?,71,How much did you LIKE the movements you just watched?,36,71,7.7474,36,8.896,space,3.0956,,0,22,22,44,1,,,,,,,,,,,,,,,,,,
,,,,,527982,001,2026-06-16_15h23.37.011,AIDance_3Blocks_AI2026_v5,2026.1.2,MacIntel,119.047619,,,,,,,,,,,,,,,,,,,,,,m,,,,,,,,,,,,,,,,,,,,,,,,,,,,,,,,,,,,,,1120.2123,1122.2142,,,,,,stimuli/AI_new21_bw_LUM.mp4,3,7,,,,,,,,,,,,,,,,,,,,,,,,,,,,,,,,,,,,,,,,,,,,1111.3475,1120.2122,How much ARTISTIC SKILL was involved in the movements you just watched?,17,How much did you LIKE the movements you just watched?,24,17,8.6785,24,8.0628,space,2.816,,0,23,23,47,1,,,,,,,,,,,,,,,,,,
,,,,,527982,001,2026-06-16_15h23.37.011,AIDance_3Blocks_AI2026_v5,2026.1.2,MacIntel,119.047619,,,,,,,,,,,,,,,,,,,,,,m,,,,,,,,,,,,,,,,,,,,,,,,,,,,,,,,,,,,,,1132.3122,1134.3126,,,,,,stimuli/MRes_Dance2_Part2_bw.mp4,1,8,,,,,,,,,,,,,,,,,,,,,,,,,,,,,,,,,,,,,,,,,,,,1122.2155,1132.3121,How much ARTISTIC SKILL was involved in the movements you just watched?,38,How much did you LIKE the movements you just watched?,60,38,9.3421,60,9.9238,space,4.0355,,0,24,24,9,1,,,,,,,,,,,,,,,,,,
,,,,,527982,001,2026-06-16_15h23.37.011,AIDance_3Blocks_AI2026_v5,2026.1.2,MacIntel,119.047619,,,,,,,,,,,,,,,,,,,,,,m,,,,,,,,,,,,,,,,,,,,,,,,,,,,,,,,,,,,,,1146.1112,1148.1133,,,,,,stimuli/AI_19_bw_LUM.mp4,2,7,,,,,,,,,,,,,,,,,,,,,,,,,,,,,,,,,,,,,,,,,,,,1134.3137,1146.111,How much ARTISTIC SKILL was involved in the movements you just watched?,82,How much did you LIKE the movements you just watched?,60,82,11.4347,60,10.664,space,5.7445,,0,25,25,29,1,,,,,,,,,,,,,,,,,,
,,,,,527982,001,2026-06-16_15h23.37.011,AIDance_3Blocks_AI2026_v5,2026.1.2,MacIntel,119.047619,,,,,,,,,,,,,,,,,,,,,,m,,,,,,,,,,,,,,,,,,,,,,,,,,,,,,,,,,,,,,1157.2744,1159.2746,,,,,,stimuli/MRes_Dance1_Part3_bw.mp4,1,7,,,,,,,,,,,,,,,,,,,,,,,,,,,,,,,,,,,,,,,,,,,,1148.114,1157.2743,How much ARTISTIC SKILL was involved in the movements you just watched?,82,How much did you LIKE the movements you just watched?,28,82,8.1167,28,8.6881,space,3.1188,,0,26,26,2,1,,,,,,,,,,,,,,,,,,
,,,,,527982,001,2026-06-16_15h23.37.011,AIDance_3Blocks_AI2026_v5,2026.1.2,MacIntel,119.047619,,,,,,,,,,,,,,,,,,,,,,m,,,,,,,,,,,,,,,,,,,,,,,,,,,,,,,,,,,,,,1170.8075,1172.8074,,,,,,stimuli/AI_new8_bw_LUM.mp4,3,7,,,,,,,,,,,,,,,,,,,,,,,,,,,,,,,,,,,,,,,,,,,,1159.2766,1170.8074,How much did you LIKE the movements you just watched?,14,How much ARTISTIC SKILL was involved in the movements you just watched?,20,14,10.996,20,10.4009,space,5.489,,0,27,27,37,1,,,,,,,,,,,,,,,,,,
,,,,,527982,001,2026-06-16_15h23.37.011,AIDance_3Blocks_AI2026_v5,2026.1.2,MacIntel,119.047619,,,,,,,,,,,,,,,,,,,,,,m,,,,,,,,,,,,,,,,,,,,,,,,,,,,,,,,,,,,,,1181.9366,1183.9364,,,,,,stimuli/AI_new13_bw_LUM.mp4,3,7,,,,,,,,,,,,,,,,,,,,,,,,,,,,,,,,,,,,,,,,,,,,1172.8077,1181.9364,How much did you LIKE the movements you just watched?,42,How much ARTISTIC SKILL was involved in the movements you just watched?,62,42,8.4384,62,8.9935,space,3.0937,,0,28,28,41,1,,,,,,,,,,,,,,,,,,
,,,,,527982,001,2026-06-16_15h23.37.011,AIDance_3Blocks_AI2026_v5,2026.1.2,MacIntel,119.047619,,,,,,,,,,,,,,,,,,,,,,m,,,,,,,,,,,,,,,,,,,,,,,,,,,,,,,,,,,,,,1192.8032,1194.8024,,,,,,stimuli/AI_22_bw_LUM.mp4,2,7,,,,,,,,,,,,,,,,,,,,,,,,,,,,,,,,,,,,,,,,,,,,1183.9371,1192.8031,How much ARTISTIC SKILL was involved in the movements you just watched?,81,How much did you LIKE the movements you just watched?,48,81,8.3011,48,7.8097,space,2.8177,,0,29,29,31,1,,,,,,,,,,,,,,,,,,
,,,,,527982,001,2026-06-16_15h23.37.011,AIDance_3Blocks_AI2026_v5,2026.1.2,MacIntel,119.047619,,,,,,,,,,,,,,,,,,,,,,m,,,,,,,,,,,,,,,,,,,,,,,,,,,,,,,,,,,,,,1222.3448,1224.3442,,,,,,stimuli/AI_7_bw_LUM.mp4,2,7,,,,,,,,,,,,,,,,,,,,,,,,,,,,,,,,,,,,,,,,,,,,1194.8034,1222.3446,How much ARTISTIC SKILL was involved in the movements you just watched?,71,How much did you LIKE the movements you just watched?,39,71,25.7593,39,27.195,space,21.5224,,0,30,30,21,1,,,,,,,,,,,,,,,,,,
,,,,,527982,001,2026-06-16_15h23.37.011,AIDance_3Blocks_AI2026_v5,2026.1.2,MacIntel,119.047619,,,,,,,,,,,,,,,,,,,,,,m,,,,,,,,,,,,,,,,,,,,,,,,,,,,,,,,,,,,,,1247.0107,1249.0104,,,,,,stimuli/AI_6_bw_LUM.mp4,2,7,,,,,,,,,,,,,,,,,,,,,,,,,,,,,,,,,,,,,,,,,,,,1224.3444,1247.0106,How much ARTISTIC SKILL was involved in the movements you just watched?,64,How much did you LIKE the movements you just watched?,39,64,22.2856,39,21.5648,space,16.6478,,0,31,31,20,1,,,,,,,,,,,,,,,,,,
,,,,,527982,001,2026-06-16_15h23.37.011,AIDance_3Blocks_AI2026_v5,2026.1.2,MacIntel,119.047619,,,,,,,,,,,,,,,,,,,,,,m,,,,,,,,,,,,,,,,,,,,,,,,,,,,,,,,,,,,,,1258.11,1260.1106,,,,,,stimuli/AI_4_bw_LUM.mp4,2,7,,,,,,,,,,,,,,,,,,,,,,,,,,,,,,,,,,,,,,,,,,,,1249.0112,1258.1098,How much ARTISTIC SKILL was involved in the movements you just watched?,87,How much did you LIKE the movements you just watched?,42,87,8.194,42,8.7515,space,3.0573,,0,32,32,18,1,,,,,,,,,,,,,,,,,,
,,,,,527982,001,2026-06-16_15h23.37.011,AIDance_3Blocks_AI2026_v5,2026.1.2,MacIntel,119.047619,,,,,,,,,,,,,,,,,,,,,,m,,,,,,,,,,,,,,,,,,,,,,,,,,,,,,,,,,,,,,1277.3104,1279.3104,,,,,,stimuli/MRes_Dance1_Part8_bw.mp4,1,9,,,,,,,,,,,,,,,,,,,,,,,,,,,,,,,,,,,,,,,,,,,,1260.1124,1277.3103,How much did you LIKE the movements you just watched?,23,How much ARTISTIC SKILL was involved in the movements you just watched?,41,23,16.8766,41,15.806,space,11.1354,,0,33,33,7,1,,,,,,,,,,,,,,,,,,
,,,,,527982,001,2026-06-16_15h23.37.011,AIDance_3Blocks_AI2026_v5,2026.1.2,MacIntel,119.047619,,,,,,,,,,,,,,,,,,,,,,m,,,,,,,,,,,,,,,,,,,,,,,,,,,,,,,,,,,,,,1287.1771,1289.1762,,,,,,stimuli/MRes_Dance2_Part6_bw.mp4,1,6,,,,,,,,,,,,,,,,,,,,,,,,,,,,,,,,,,,,,,,,,,,,1279.3117,1287.1769,How much ARTISTIC SKILL was involved in the movements you just watched?,23,How much did you LIKE the movements you just watched?,49,23,7.0863,49,7.584,space,1.8326,,0,34,34,13,1,,,,,,,,,,,,,,,,,,
,,,,,527982,001,2026-06-16_15h23.37.011,AIDance_3Blocks_AI2026_v5,2026.1.2,MacIntel,119.047619,,,,,,,,,,,,,,,,,,,,,,m,,,,,,,,,,,,,,,,,,,,,,,,,,,,,,,,,,,,,,1298.8967,1300.8914,,,,,,stimuli/AI_new5_bw_LUM.mp4,3,7,,,,,,,,,,,,,,,,,,,,,,,,,,,,,,,,,,,,,,,,,,,,1289.1767,1298.8966,How much did you LIKE the movements you just watched?,81,How much ARTISTIC SKILL was involved in the movements you just watched?,49,81,9.4913,49,9.0774,space,3.7094,,0,35,35,35,1,,,,,,,,,,,,,,,,,,
,,,,,527982,001,2026-06-16_15h23.37.011,AIDance_3Blocks_AI2026_v5,2026.1.2,MacIntel,119.047619,,,,,,,,,,,,,,,,,,,,,,m,,,,,,,,,,,,,,,,,,,,,,,,,,,,,,,,,,,,,,1309.5558,1311.5572,,,,,,stimuli/AI_new6_bw_LUM.mp4,3,7,,,,,,,,,,,,,,,,,,,,,,,,,,,,,,,,,,,,,,,,,,,,1300.8921,1309.5557,How much did you LIKE the movements you just watched?,55,How much ARTISTIC SKILL was involved in the movements you just watched?,59,55,7.7884,59,8.409,space,2.6519,,0,36,36,36,1,,,,,,,,,,,,,,,,,,
,,,,,527982,001,2026-06-16_15h23.37.011,AIDance_3Blocks_AI2026_v5,2026.1.2,MacIntel,119.047619,,,,,,,,,,,,,,,,,,,,,,m,,,,,,,,,,,,,,,,,,,,,,,,,,,,,,,,,,,,,,1321.0182,1323.0172,,,,,,stimuli/MRes_Dance2_Part8_bw.mp4,1,7,,,,,,,,,,,,,,,,,,,,,,,,,,,,,,,,,,,,,,,,,,,,1311.5586,1321.018,How much ARTISTIC SKILL was involved in the movements you just watched?,84,How much did you LIKE the movements you just watched?,73,84,9.1674,73,8.5841,space,3.4457,,0,37,37,15,1,,,,,,,,,,,,,,,,,,
,,,,,527982,001,2026-06-16_15h23.37.011,AIDance_3Blocks_AI2026_v5,2026.1.2,MacIntel,119.047619,,,,,,,,,,,,,,,,,,,,,,m,,,,,,,,,,,,,,,,,,,,,,,,,,,,,,,,,,,,,,1332.3338,1334.3345,,,,,,stimuli/AI_new2_bw_LUM.mp4,3,7,,,,,,,,,,,,,,,,,,,,,,,,,,,,,,,,,,,,,,,,,,,,1323.0174,1332.3336,How much ARTISTIC SKILL was involved in the movements you just watched?,69,How much did you LIKE the movements you just watched?,43,69,8.5414,43,9.1131,space,3.3059,,0,38,38,33,1,,,,,,,,,,,,,,,,,,
,,,,,527982,001,2026-06-16_15h23.37.011,AIDance_3Blocks_AI2026_v5,2026.1.2,MacIntel,119.047619,,,,,,,,,,,,,,,,,,,,,,m,,,,,,,,,,,,,,,,,,,,,,,,,,,,,,,,,,,,,,1342.6513,1344.651,,,,,,stimuli/AI_new3_bw_LUM.mp4,3,7,,,,,,,,,,,,,,,,,,,,,,,,,,,,,,,,,,,,,,,,,,,,1334.3351,1342.6512,How much did you LIKE the movements you just watched?,40,How much ARTISTIC SKILL was involved in the movements you just watched?,43,40,8.1742,43,7.5715,space,2.2996,,0,39,39,34,1,,,,,,,,,,,,,,,,,,
,,,,,527982,001,2026-06-16_15h23.37.011,AIDance_3Blocks_AI2026_v5,2026.1.2,MacIntel,119.047619,,,,,,,,,,,,,,,,,,,,,,m,,,,,,,,,,,,,,,,,,,,,,,,,,,,,,,,,,,,,,1352.8261,1354.8261,,,,,,stimuli/MRes_Dance1_Part4_bw.mp4,1,6,,,,,,,,,,,,,,,,,,,,,,,,,,,,,,,,,,,,,,,,,,,,1344.6513,1352.826,How much did you LIKE the movements you just watched?,40,How much ARTISTIC SKILL was involved in the movements you just watched?,53,40,6.8606,53,7.8703,space,2.1585,,0,40,40,3,1,,,,,,,,,,,,,,,,,,
,,,,,527982,001,2026-06-16_15h23.37.011,AIDance_3Blocks_AI2026_v5,2026.1.2,MacIntel,119.047619,,,,,,,,,,,,,,,,,,,,,,m,,,,,,,,,,,,,,,,,,,,,,,,,,,,,,,,,,,,,,1363.4092,1365.4081,,,,,,stimuli/AI_new18_bw_LUM.mp4,3,7,,,,,,,,,,,,,,,,,,,,,,,,,,,,,,,,,,,,,,,,,,,,1354.8276,1363.4091,How much ARTISTIC SKILL was involved in the movements you just watched?,76,How much did you LIKE the movements you just watched?,53,76,8.2925,53,7.6094,space,2.5667,,0,41,41,46,1,,,,,,,,,,,,,,,,,,
,,,,,527982,001,2026-06-16_15h23.37.011,AIDance_3Blocks_AI2026_v5,2026.1.2,MacIntel,119.047619,,,,,,,,,,,,,,,,,,,,,,m,,,,,,,,,,,,,,,,,,,,,,,,,,,,,,,,,,,,,,1374.5585,1376.558,,,,,,stimuli/AI_16_bw_LUM.mp4,2,7,,,,,,,,,,,,,,,,,,,,,,,,,,,,,,,,,,,,,,,,,,,,1365.4085,1374.5583,How much ARTISTIC SKILL was involved in the movements you just watched?,79,How much did you LIKE the movements you just watched?,62,79,7.821,62,8.8281,space,3.1366,,0,42,42,26,1,,,,,,,,,,,,,,,,,,
,,,,,527982,001,2026-06-16_15h23.37.011,AIDance_3Blocks_AI2026_v5,2026.1.2,MacIntel,119.047619,,,,,,,,,,,,,,,,,,,,,,m,,,,,,,,,,,,,,,,,,,,,,,,,,,,,,,,,,,,,,1385.984,1387.9837,,,,,,stimuli/AI_20_bw_LUM.mp4,2,7,,,,,,,,,,,,,,,,,,,,,,,,,,,,,,,,,,,,,,,,,,,,1376.5588,1385.9839,How much did you LIKE the movements you just watched?,63,How much ARTISTIC SKILL was involved in the movements you just watched?,62,63,8.8748,62,8.3696,space,3.4115,,0,43,43,30,1,,,,,,,,,,,,,,,,,,
,,,,,527982,001,2026-06-16_15h23.37.011,AIDance_3Blocks_AI2026_v5,2026.1.2,MacIntel,119.047619,,,,,,,,,,,,,,,,,,,,,,m,,,,,,,,,,,,,,,,,,,,,,,,,,,,,,,,,,,,,,1397.0839,1399.0842,,,,,,stimuli/MRes_Dance2_Part1_bw.mp4,1,6,,,,,,,,,,,,,,,,,,,,,,,,,,,,,,,,,,,,,,,,,,,,1387.9843,1397.0838,How much ARTISTIC SKILL was involved in the movements you just watched?,43,How much did you LIKE the movements you just watched?,22,43,8.1123,22,8.7765,space,3.0795,,0,44,44,8,1,,,,,,,,,,,,,,,,,,
,,,,,527982,001,2026-06-16_15h23.37.011,AIDance_3Blocks_AI2026_v5,2026.1.2,MacIntel,119.047619,,,,,,,,,,,,,,,,,,,,,,m,,,,,,,,,,,,,,,,,,,,,,,,,,,,,,,,,,,,,,1408.8503,1410.8501,,,,,,stimuli/AI_3_bw_LUM.mp4,2,7,,,,,,,,,,,,,,,,,,,,,,,,,,,,,,,,,,,,,,,,,,,,1399.0882,1408.8502,How much did you LIKE the movements you just watched?,55,How much ARTISTIC SKILL was involved in the movements you just watched?,29,55,9.4952,29,8.6777,space,3.7567,,0,45,45,17,1,,,,,,,,,,,,,,,,,,
,,,,,527982,001,2026-06-16_15h23.37.011,AIDance_3Blocks_AI2026_v5,2026.1.2,MacIntel,119.047619,,,,,,,,,,,,,,,,,,,,,,m,,,,,,,,,,,,,,,,,,,,,,,,,,,,,,,,,,,,,,1417.9254,1419.925,,,,,,stimuli/MRes_Dance2_Part3_bw.mp4,1,5,,,,,,,,,,,,,,,,,,,,,,,,,,,,,,,,,,,,,,,,,,,,1410.8508,1417.9253,How much ARTISTIC SKILL was involved in the movements you just watched?,59,How much did you LIKE the movements you just watched?,40,59,6.5987,40,5.9775,space,1.057,,0,46,46,10,1,,,,,,,,,,,,,,,,,,
,,,,,527982,001,2026-06-16_15h23.37.011,AIDance_3Blocks_AI2026_v5,2026.1.2,MacIntel,119.047619,,,,,,,,,,,,,,,,,,,,,,m,,,,,,,,,,,,,,,,,,,,,,,,,,,,,,,,,,,,,,1429.5502,1431.5499,,,,,,stimuli/AI_12_bw_LUM.mp4,2,7,,,,,,,,,,,,,,,,,,,,,,,,,,,,,,,,,,,,,,,,,,,,1419.9256,1429.5501,How much did you LIKE the movements you just watched?,66,How much ARTISTIC SKILL was involved in the movements you just watched?,46,66,9.1816,46,8.3493,space,3.6083,,0,47,47,23,1,,,,,,,,,,,,,,,,,,
,,,,,527982,001,2026-06-16_15h23.37.011,AIDance_3Blocks_AI2026_v5,2026.1.2,MacIntel,119.047619,,,,,,,,,,,,,,,,,,,,,,m,,,,,,,,,,,,,,,,,,,,,,,,,,,,,,,,,,,,,,,,,,,,,,,,,,,,,,,,,,,,,,,,,,,,,,,,,,,,,,,,,,,,,,,,,,,,,,,,,,,,,,,,,,,,,1431.5503,1462.1539,How much ARTISTIC SKILL was involved in the movements you just watched?,100,How much did you LIKE the movements you just watched?,100,100,28.5737,100,29.4234,space,24.5779,,,,,,
,,,,,527982,001,2026-06-16_15h23.37.011,AIDance_3Blocks_AI2026_v5,2026.1.2,MacIntel,119.047619,,,,,,,,,,,,,,,,,,,,,,m,,,,,,,,,,,,,,,,,,,,,,,,,,,,,,,,,,,,,,,,,,,,,,,,,,,,,,,,,,,,,,,,,,,,,,,,,,,,,,,,,,,,,,,,,,,,,,,,,,,,,,,,,,,,,,,,,,,,,,,,,,1462.1541,1466.3156,space,3.1506,
